#Shining_header
#Data type:raman_database
#CAS:Not entered
#Material scientific name:sodium alumino-silicate
#Manufacturer:Not entered
#Laser model:Not entered
#Spectrometer model:Not entered
#Testing unit:Not entered
#Test time:Not entered
#Other experimental details:Not entered
#Shining_data
50.000 438
51.262 435
52.523 439
53.785 440
55.046 432
56.307 433
57.567 432
58.828 435
60.088 432
61.349 433
62.609 435
63.869 437
65.128 434
66.388 437
67.647 437
68.906 436
70.165 434
71.424 435
72.683 452
73.941 445
75.200 447
76.458 460
77.716 458
78.974 471
80.231 486
81.489 505
82.746 522
84.003 534
85.260 550
86.517 575
87.773 579
89.030 598
90.286 610
91.542 633
92.798 640
94.054 643
95.309 673
96.565 682
97.820 695
99.075 736
100.330 780
101.585 842
102.839 919
104.093 1010
105.348 1117
106.602 1216
107.855 1285
109.109 1307
110.363 1297
111.616 1208
112.869 1089
114.122 995
115.375 894
116.627 821
117.880 770
119.132 720
120.384 666
121.636 644
122.888 620
124.139 600
125.391 590
126.642 571
127.893 561
129.144 562
130.395 552
131.645 553
132.896 538
134.146 544
135.396 530
136.646 536
137.896 537
139.145 533
140.394 528
141.644 526
142.893 535
144.141 530
145.390 530
146.639 525
147.887 540
149.135 535
150.383 528
151.631 542
152.878 536
154.126 529
155.373 547
156.620 533
157.867 534
159.114 529
160.361 527
161.607 530
162.853 524
164.099 528
165.345 512
166.591 510
167.837 507
169.082 505
170.327 505
171.572 502
172.817 502
174.062 506
175.306 509
176.551 505
177.795 506
179.039 508
180.283 506
181.527 513
182.770 503
184.013 497
185.257 498
186.500 502
187.742 496
188.985 500
190.228 499
191.470 488
192.712 493
193.954 491
195.196 498
196.437 493
197.679 500
198.920 490
200.161 485
201.402 490
202.643 479
203.884 491
205.124 491
206.364 487
207.604 488
208.844 491
210.084 489
211.324 487
212.563 486
213.802 489
215.041 482
216.280 490
217.519 481
218.758 486
219.996 482
221.234 489
222.472 480
223.710 490
224.948 480
226.185 481
227.423 487
228.660 484
229.897 483
231.134 479
232.371 490
233.607 486
234.843 477
236.080 470
237.316 479
238.551 479
239.787 476
241.023 485
242.258 486
243.493 482
244.728 481
245.963 472
247.197 479
248.432 480
249.666 478
250.900 478
252.134 478
253.368 477
254.602 472
255.835 477
257.068 485
258.302 493
259.535 478
260.767 483
262.000 486
263.232 484
264.465 481
265.697 482
266.929 479
268.160 486
269.392 484
270.623 494
271.855 490
273.086 496
274.317 490
275.547 492
276.778 493
278.008 495
279.239 497
280.469 496
281.699 490
282.928 490
284.158 492
285.387 499
286.616 491
287.846 494
289.074 502
290.303 508
291.532 490
292.760 494
293.988 487
295.216 488
296.444 487
297.672 486
298.899 486
300.127 481
301.354 486
302.581 489
303.808 485
305.035 497
306.261 486
307.487 487
308.714 488
309.940 488
311.165 487
312.391 488
313.617 496
314.842 485
316.067 486
317.292 494
318.517 488
319.742 481
320.966 490
322.190 482
323.415 489
324.639 490
325.862 492
327.086 491
328.309 492
329.533 489
330.756 494
331.979 491
333.202 487
334.424 488
335.647 489
336.869 481
338.091 492
339.313 494
340.535 496
341.757 496
342.978 493
344.199 491
345.421 495
346.642 493
347.862 500
349.083 495
350.303 497
351.524 494
352.744 506
353.964 500
355.184 507
356.403 514
357.623 514
358.842 523
360.061 522
361.280 526
362.499 530
363.717 530
364.936 541
366.154 558
367.372 554
368.590 563
369.808 583
371.025 595
372.243 605
373.460 635
374.677 646
375.894 687
377.111 724
378.328 760
379.544 839
380.760 881
381.976 961
383.192 1068
384.408 1173
385.624 1325
386.839 1473
388.054 1578
389.269 1660
390.484 1653
391.699 1553
392.914 1440
394.128 1291
395.342 1173
396.556 1052
397.770 967
398.984 881
400.198 824
401.411 775
402.624 729
403.838 695
405.050 658
406.263 650
407.476 639
408.688 630
409.900 598
411.113 593
412.324 606
413.536 588
414.748 562
415.959 546
417.171 541
418.382 540
419.593 529
420.803 529
422.014 526
423.224 525
424.435 515
425.645 510
426.855 511
428.064 510
429.274 512
430.483 518
431.693 507
432.902 504
434.111 504
435.319 509
436.528 501
437.736 507
438.945 508
440.153 514
441.361 517
442.568 515
443.776 504
444.983 509
446.191 504
447.398 509
448.605 504
449.812 509
451.018 513
452.225 513
453.431 521
454.637 521
455.843 522
457.049 525
458.254 527
459.460 527
460.665 536
461.870 527
463.075 530
464.280 519
465.484 531
466.689 517
467.893 518
469.097 520
470.301 518
471.505 518
472.709 514
473.912 512
475.115 519
476.318 504
477.521 504
478.724 508
479.927 493
481.129 501
482.332 501
483.534 495
484.736 501
485.937 487
487.139 495
488.341 491
489.542 492
490.743 487
491.944 498
493.145 489
494.345 486
495.546 495
496.746 494
497.946 497
499.146 492
500.346 501
501.546 496
502.745 505
503.945 501
505.144 501
506.343 508
507.542 526
508.740 527
509.939 530
511.137 538
512.335 547
513.533 552
514.731 546
515.929 554
517.126 544
518.324 532
519.521 521
520.718 516
521.915 509
523.111 503
524.308 500
525.504 496
526.700 493
527.896 486
529.092 485
530.288 485
531.483 486
532.679 483
533.874 492
535.069 483
536.264 483
537.459 485
538.653 478
539.848 485
541.042 487
542.236 484
543.430 479
544.623 477
545.817 478
547.010 479
548.204 474
549.397 481
550.590 483
551.782 479
552.975 477
554.167 476
555.360 480
556.552 479
557.744 477
558.935 479
560.127 477
561.318 482
562.510 481
563.701 480
564.892 479
566.082 480
567.273 477
568.464 480
569.654 480
570.844 484
572.034 481
573.224 472
574.413 482
575.603 483
576.792 483
577.981 481
579.170 487
580.359 478
581.548 481
582.736 484
583.924 481
585.113 489
586.301 492
587.488 488
588.676 479
589.864 483
591.051 480
592.238 480
593.425 482
594.612 486
595.799 483
596.985 481
598.172 488
599.358 485
600.544 481
601.730 479
602.915 483
604.101 482
605.286 484
606.472 480
607.657 494
608.842 480
610.026 481
611.211 480
612.395 480
613.579 482
614.764 487
615.947 482
617.131 489
618.315 483
619.498 481
620.682 483
621.865 486
623.048 480
624.230 491
625.413 482
626.595 490
627.778 502
628.960 489
630.142 480
631.324 478
632.505 480
633.687 483
634.868 482
636.049 483
637.230 482
638.411 488
639.592 483
640.772 484
641.953 488
643.133 485
644.313 479
645.493 479
646.672 491
647.852 485
649.031 482
650.210 480
651.389 480
652.568 489
653.747 480
654.926 484
656.104 485
657.282 479
658.460 487
659.638 485
660.816 486
661.994 487
663.171 483
664.348 480
665.525 490
666.702 483
667.879 483
669.056 482
670.232 481
671.408 484
672.585 488
673.761 481
674.936 482
676.112 482
677.287 477
678.463 484
679.638 483
680.813 486
681.988 486
683.162 484
684.337 487
685.511 478
686.686 485
687.860 478
689.033 487
690.207 479
691.381 488
692.554 482
693.727 483
694.900 482
696.073 481
697.246 482
698.419 482
699.591 487
700.763 479
701.935 479
703.107 485
704.279 490
705.451 485
706.622 481
707.793 480
708.965 485
710.136 479
711.306 486
712.477 484
713.648 492
714.818 482
715.988 483
717.158 479
718.328 492
719.498 495
720.667 481
721.836 486
723.006 492
724.175 488
725.344 488
726.512 490
727.681 490
728.849 489
730.017 492
731.186 481
732.353 479
733.521 482
734.689 484
735.856 485
737.023 485
738.191 493
739.358 489
740.524 493
741.691 486
742.857 492
744.024 482
745.190 487
746.356 484
747.522 487
748.687 486
749.853 496
751.018 487
752.183 488
753.348 486
754.513 487
755.678 490
756.843 494
758.007 494
759.171 487
760.335 493
761.499 485
762.663 490
763.827 492
764.990 490
766.153 496
767.316 494
768.479 492
769.642 492
770.805 494
771.967 498
773.129 489
774.292 493
775.454 497
776.615 495
777.777 491
778.939 494
780.100 491
781.261 493
782.422 492
783.583 501
784.744 489
785.904 496
787.065 491
788.225 491
789.385 490
790.545 492
791.705 496
792.864 496
794.024 497
795.183 497
796.342 492
797.501 496
798.660 497
799.819 492
800.977 501
802.135 500
803.294 503
804.452 495
805.609 493
806.767 496
807.925 504
809.082 507
810.239 497
811.396 502
812.553 501
813.710 508
814.866 501
816.023 501
817.179 498
818.335 507
819.491 511
820.647 517
821.803 516
822.958 519
824.113 523
825.268 532
826.423 538
827.578 537
828.733 568
829.887 591
831.042 604
832.196 641
833.350 686
834.504 712
835.658 731
836.811 713
837.965 675
839.118 631
840.271 594
841.424 574
842.577 547
843.729 546
844.882 531
846.034 522
847.186 515
848.338 515
849.490 513
850.642 504
851.793 507
852.944 502
854.096 509
855.247 512
856.397 511
857.548 500
858.699 506
859.849 508
860.999 502
862.149 503
863.299 499
864.449 506
865.599 509
866.748 501
867.897 507
869.047 496
870.195 505
871.344 501
872.493 503
873.641 505
874.790 510
875.938 502
877.086 497
878.234 502
879.382 505
880.529 501
881.676 506
882.824 500
883.971 503
885.118 506
886.264 501
887.411 506
888.558 499
889.704 498
890.850 501
891.996 507
893.142 506
894.287 497
895.433 508
896.578 505
897.723 501
898.868 501
900.013 505
901.158 504
902.303 506
903.447 499
904.591 501
905.735 506
906.879 496
908.023 507
909.167 506
910.310 502
911.453 500
912.597 501
913.740 502
914.882 502
916.025 498
917.168 494
918.310 504
919.452 505
920.594 515
921.736 502
922.878 498
924.019 502
925.161 501
926.302 504
927.443 501
928.584 503
929.725 505
930.865 501
932.006 504
933.146 500
934.286 503
935.426 506
936.566 504
937.706 502
938.846 499
939.985 509
941.124 499
942.263 508
943.402 499
944.541 497
945.679 506
946.818 507
947.956 502
949.094 506
950.232 507
951.370 505
952.508 521
953.645 512
954.783 503
955.920 509
957.057 515
958.194 510
959.330 504
960.467 508
961.603 510
962.740 517
963.876 505
965.012 519
966.147 517
967.283 504
968.419 514
969.554 520
970.689 519
971.824 521
972.959 521
974.094 516
975.228 514
976.362 514
977.497 522
978.631 523
979.765 524
980.898 532
982.032 526
983.165 523
984.299 531
985.432 527
986.565 527
987.698 528
988.830 529
989.963 531
991.095 528
992.227 530
993.359 530
994.491 533
995.623 541
996.755 540
997.886 530
999.017 538
1000.148 537
1001.279 540
1002.410 537
1003.541 539
1004.671 548
1005.802 532
1006.932 535
1008.062 526
1009.192 535
1010.321 537
1011.451 527
1012.580 529
1013.710 526
1014.839 544
1015.968 533
1017.096 530
1018.225 525
1019.354 530
1020.482 523
1021.610 525
1022.738 529
1023.866 527
1024.994 526
1026.121 534
1027.249 532
1028.376 529
1029.503 529
1030.630 532
1031.757 524
1032.883 522
1034.010 529
1035.136 529
1036.262 517
1037.388 522
1038.514 525
1039.640 525
1040.765 529
1041.891 534
1043.016 523
1044.141 528
1045.266 533
1046.390 541
1047.515 533
1048.640 539
1049.764 541
1050.888 531
1052.012 532
1053.136 530
1054.259 539
1055.383 538
1056.506 541
1057.630 545
1058.753 541
1059.876 545
1060.998 544
1062.121 549
1063.243 545
1064.366 550
1065.488 557
1066.610 551
1067.732 549
1068.853 552
1069.975 551
1071.096 564
1072.217 565
1073.338 561
1074.459 550
1075.580 547
1076.701 555
1077.821 545
1078.941 550
1080.061 549
1081.181 548
1082.301 558
1083.421 550
1084.540 552
1085.660 533
1086.779 549
1087.898 562
1089.017 548
1090.136 549
1091.254 548
1092.373 554
1093.491 555
1094.609 548
1095.727 550
1096.845 550
1097.963 552
1099.080 554
1100.197 563
1101.315 554
1102.432 555
1103.549 562
1104.665 563
1105.782 562
1106.898 562
1108.015 564
1109.131 566
1110.247 552
1111.363 563
1112.478 552
1113.594 555
1114.709 556
1115.824 552
1116.940 555
1118.054 551
1119.169 552
1120.284 550
1121.398 551
1122.513 562
1123.627 544
1124.741 548
1125.855 545
1126.968 549
1128.082 541
1129.195 551
1130.308 546
1131.421 540
1132.534 539
1133.647 540
1134.760 546
1135.872 534
1136.985 537
1138.097 541
1139.209 542
1140.321 539
1141.432 537
1142.544 535
1143.655 540
1144.766 544
1145.877 542
1146.988 540
1148.099 549
1149.210 547
1150.320 545
1151.431 542
1152.541 542
1153.651 533
1154.761 546
1155.870 534
1156.980 534
1158.089 544
1159.199 537
1160.308 539
1161.417 535
1162.525 541
1163.634 545
1164.743 536
1165.851 532
1166.959 533
1168.067 534
1169.175 540
1170.283 528
1171.390 535
1172.498 531
1173.605 535
1174.712 531
1175.819 539
1176.926 551
1178.033 529
1179.139 532
1180.246 532
1181.352 530
1182.458 532
1183.564 535
1184.670 537
1185.775 531
1186.881 535
1187.986 548
1189.091 552
1190.196 546
1191.301 542
1192.406 543
1193.510 540
1194.614 541
1195.719 542
1196.823 539
1197.927 534
1199.031 533
1200.134 532
1201.238 536
1202.341 534
1203.444 539
1204.547 536
1205.650 547
1206.753 536
1207.855 537
1208.958 533
1210.060 543
1211.162 535
1212.264 537
1213.366 544
1214.468 543
1215.569 539
1216.670 535
1217.772 533
1218.873 524
1219.974 529
1221.074 543
1222.175 548
1223.275 552
1224.376 542
1225.476 538
1226.576 532
1227.676 538
1228.775 539
1229.875 542
1230.974 537
1232.074 536
1233.173 534
1234.272 536
1235.370 543
1236.469 534
1237.568 545
1238.666 531
1239.764 539
1240.862 535
1241.960 534
1243.058 540
1244.155 529
1245.253 530
1246.350 541
1247.447 545
1248.544 532
1249.641 536
1250.738 539
1251.834 533
1252.931 531
1254.027 534
1255.123 539
1256.219 540
1257.315 545
1258.410 541
1259.506 538
1260.601 539
1261.696 535
1262.791 546
1263.886 538
1264.981 539
1266.075 536
1267.170 537
1268.264 538
1269.358 536
1270.452 537
1271.546 538
1272.640 536
1273.733 551
1274.827 553
1275.920 545
1277.013 540
1278.106 539
1279.199 541
1280.291 544
1281.384 541
1282.476 546
1283.568 545
1284.660 546
1285.752 542
1286.844 538
1287.935 544
1289.027 540
1290.118 548
1291.209 543
1292.300 550
1293.391 547
1294.482 540
1295.572 546
1296.662 546
1297.753 546
1298.843 536
1299.933 547
1301.022 550
1302.112 550
1303.202 552
1304.291 556
1305.380 554
1306.469 543
1307.558 546
1308.647 549
1309.735 549
1310.824 546
1311.912 542
1313.000 547
1314.088 542
1315.176 550
1316.263 549
1317.351 551
1318.438 551
1319.526 552
1320.613 560
1321.700 562
1322.786 549
1323.873 551
1324.960 551
1326.046 549
1327.132 549
1328.218 549
1329.304 548
1330.390 556
1331.475 552
1332.561 558
1333.646 555
1334.731 553
1335.816 547
1336.901 542
1337.986 559
1339.070 561
1340.155 561
1341.239 556
1342.323 557
1343.407 564
1344.491 557
1345.574 562
1346.658 562
1347.741 559
1348.824 560
1349.907 560
1350.990 564
1352.073 561
1353.156 559
1354.238 564
1355.320 559
1356.403 561
1357.485 569
1358.566 558
1359.648 551
1360.730 564
1361.811 566
1362.892 562
1363.974 572
1365.055 559
1366.135 560
1367.216 568
1368.297 560
1369.377 559
1370.457 558
1371.537 559
1372.617 567
1373.697 567
1374.777 567
1375.856 560
1376.935 570
1378.015 569
1379.094 566
1380.173 566
1381.251 561
1382.330 555
1383.408 564
1384.487 564
1385.565 565
1386.643 569
1387.721 568
1388.798 561
1389.876 562
1390.953 560
1392.031 568
1393.108 560
1394.185 564
1395.261 563
1396.338 567
1397.415 561
1398.491 563
1399.567 568
1400.643 567
